5/15/2013	10:11 AM
Pseudo Cross Correlation
Scattering angle:	30.0
Duration (s):	60
Wavelength (nm):	660.0
Refractive index:	1.400
Viscosity (mPas):	0.895
Temperature (K):	329.1
Laser intensity (mW):	71.045647
Average Count rate  A (kHz):	261.0
Average Count rate  B (kHz):	273.3
Intercept:	1.0000
Cumulant 1st	-Inf
Cumulant 2nd	-Inf	NaN
Cumulant 3rd	-Inf	NaN

Lag time (s)         g2-1
1.250000E-8	1.352061
2.500000E-8	1.350466
3.750000E-8	1.353806
5.000000E-8	1.347651
6.250000E-8	1.355157
7.500000E-8	1.348533
8.750000E-8	1.342923
1.000000E-7	1.354875
1.125000E-7	1.343805
1.250000E-7	1.352924
1.375000E-7	1.332227
1.500000E-7	1.349753
1.625000E-7	1.342679
1.750000E-7	1.338532
1.875000E-7	1.345325
2.000000E-7	1.330801
2.125000E-7	1.347689
2.250000E-7	1.339921
2.375000E-7	1.338757
2.500000E-7	1.342416
2.625000E-7	1.334686
2.750000E-7	1.334929
2.875000E-7	1.332040
3.000000E-7	1.334929
3.125000E-7	1.338213
3.250000E-7	1.337463
3.375000E-7	1.339470
3.500000E-7	1.323878
3.625000E-7	1.334348
3.750000E-7	1.335961
3.875000E-7	1.335680
4.000000E-7	1.332040
4.125000E-7	1.326617
4.250000E-7	1.323502
4.375000E-7	1.335455
4.500000E-7	1.325885
4.625000E-7	1.334573
4.750000E-7	1.335342
4.875000E-7	1.328719
5.000000E-7	1.328644
5.125000E-7	1.330595
5.250000E-7	1.330464
5.375000E-7	1.323915
5.500000E-7	1.331496
5.625000E-7	1.326580
5.750000E-7	1.337275
5.875000E-7	1.326373
6.000000E-7	1.332809
6.125000E-7	1.332640
6.250000E-7	1.324215
6.375000E-7	1.328081
6.500000E-7	1.323615
6.625000E-7	1.326486
6.750000E-7	1.334254
6.875000E-7	1.333916
7.000000E-7	1.316747
7.125000E-7	1.329113
7.250000E-7	1.325960
7.375000E-7	1.320969
7.500000E-7	1.337706
7.625000E-7	1.341459
7.750000E-7	1.320463
7.875000E-7	1.320387
8.000000E-7	1.322320
8.250000E-7	1.326617
8.500000E-7	1.332528
8.750000E-7	1.324703
9.000000E-7	1.317170
9.250000E-7	1.319421
9.500000E-7	1.313726
9.750000E-7	1.321879
1.000000E-6	1.324957
1.025000E-6	1.316569
1.050000E-6	1.314871
1.075000E-6	1.324178
1.100000E-6	1.308341
1.125000E-6	1.311981
1.150000E-6	1.323221
1.175000E-6	1.316522
1.200000E-6	1.317751
1.225000E-6	1.311109
1.250000E-6	1.322414
1.275000E-6	1.315790
1.300000E-6	1.317742
1.325000E-6	1.312976
1.350000E-6	1.315190
1.375000E-6	1.316926
1.400000E-6	1.301830
1.425000E-6	1.312253
1.450000E-6	1.306502
1.475000E-6	1.311944
1.500000E-6	1.315312
1.525000E-6	1.318305
1.550000E-6	1.310602
1.575000E-6	1.312404
1.600000E-6	1.317629
1.650000E-6	1.308163
1.700000E-6	1.310293
1.750000E-6	1.308580
1.800000E-6	1.314275
1.850000E-6	1.311479
1.900000E-6	1.312085
1.950000E-6	1.306244
2.000000E-6	1.302126
2.050000E-6	1.306821
2.100000E-6	1.306629
2.150000E-6	1.307084
2.200000E-6	1.302651
2.250000E-6	1.303964
2.300000E-6	1.304574
2.350000E-6	1.300132
2.400000E-6	1.299330
2.450000E-6	1.301938
2.500000E-6	1.294629
2.550000E-6	1.297810
2.600000E-6	1.303988
2.650000E-6	1.296295
2.700000E-6	1.299574
2.750000E-6	1.295413
2.800000E-6	1.292612
2.850000E-6	1.295671
2.900000E-6	1.294503
2.950000E-6	1.290173
3.000000E-6	1.294752
3.050000E-6	1.295099
3.100000E-6	1.289394
3.150000E-6	1.288850
3.200000E-6	1.293199
3.300000E-6	1.285855
3.400000E-6	1.283085
3.500000E-6	1.287394
3.600000E-6	1.285684
3.700000E-6	1.285492
3.800000E-6	1.280421
3.900000E-6	1.283418
4.000000E-6	1.285635
4.100000E-6	1.279417
4.200000E-6	1.283336
4.300000E-6	1.280085
4.400000E-6	1.280055
4.500000E-6	1.278579
4.600000E-6	1.276637
4.700000E-6	1.277367
4.800000E-6	1.276433
4.900000E-6	1.272024
5.000000E-6	1.274006
5.100000E-6	1.273239
5.200000E-6	1.270872
5.300000E-6	1.270094
5.400000E-6	1.273107
5.500000E-6	1.272988
5.600000E-6	1.269289
5.700000E-6	1.271126
5.800000E-6	1.272251
5.900000E-6	1.262461
6.000000E-6	1.266463
6.100000E-6	1.263484
6.200000E-6	1.263641
6.300000E-6	1.263353
6.400000E-6	1.259091
6.600000E-6	1.257935
6.800000E-6	1.256987
7.000000E-6	1.253131
7.200000E-6	1.252494
7.400000E-6	1.254290
7.600000E-6	1.250444
7.800000E-6	1.248539
8.000000E-6	1.250713
8.200000E-6	1.249310
8.400000E-6	1.243885
8.600000E-6	1.245393
8.800000E-6	1.244312
9.000000E-6	1.242569
9.200000E-6	1.240283
9.400000E-6	1.239158
9.600000E-6	1.238196
9.800000E-6	1.236870
1.000000E-5	1.234989
1.020000E-5	1.233752
1.040000E-5	1.234917
1.060000E-5	1.233092
1.080000E-5	1.229731
1.100000E-5	1.226404
1.120000E-5	1.226823
1.140000E-5	1.228149
1.160000E-5	1.223449
1.180000E-5	1.226292
1.200000E-5	1.221089
1.220000E-5	1.222088
1.240000E-5	1.220480
1.260000E-5	1.220763
1.280000E-5	1.219587
1.320000E-5	1.213762
1.360000E-5	1.214580
1.400000E-5	1.212478
1.440000E-5	1.210817
1.480000E-5	1.209485
1.520000E-5	1.206564
1.560000E-5	1.204563
1.600000E-5	1.201896
1.640000E-5	1.200848
1.680000E-5	1.199260
1.720000E-5	1.198672
1.760000E-5	1.197576
1.800000E-5	1.194511
1.840000E-5	1.193280
1.880000E-5	1.192768
1.920000E-5	1.191037
1.960000E-5	1.189158
2.000000E-5	1.186562
2.040000E-5	1.185247
2.080000E-5	1.186309
2.120000E-5	1.184282
2.160000E-5	1.181745
2.200000E-5	1.180115
2.240000E-5	1.180288
2.280000E-5	1.177305
2.320000E-5	1.174874
2.360000E-5	1.175756
2.400000E-5	1.173995
2.440000E-5	1.172727
2.480000E-5	1.171720
2.520000E-5	1.172613
2.560000E-5	1.169515
2.640000E-5	1.166128
2.720000E-5	1.164371
2.800000E-5	1.161729
2.880000E-5	1.161487
2.960000E-5	1.158990
3.040000E-5	1.156016
3.120000E-5	1.154102
3.200000E-5	1.153516
3.280000E-5	1.151541
3.360000E-5	1.149909
3.440000E-5	1.148285
3.520000E-5	1.147338
3.600000E-5	1.147131
3.680000E-5	1.143272
3.760000E-5	1.143078
3.840000E-5	1.142139
3.920000E-5	1.139897
4.000000E-5	1.139009
4.080000E-5	1.138214
4.160000E-5	1.135758
4.240000E-5	1.136958
4.320000E-5	1.135319
4.400000E-5	1.134387
4.480000E-5	1.132482
4.560000E-5	1.130883
4.640000E-5	1.131029
4.720000E-5	1.130031
4.800000E-5	1.129797
4.880000E-5	1.127658
4.960000E-5	1.126441
5.040000E-5	1.126987
5.120000E-5	1.125238
5.280000E-5	1.123499
5.440000E-5	1.122500
5.600000E-5	1.121225
5.760000E-5	1.120591
5.920000E-5	1.118936
6.080000E-5	1.117675
6.240000E-5	1.117163
6.400000E-5	1.114900
6.560000E-5	1.114704
6.720000E-5	1.113209
6.880000E-5	1.113048
7.040000E-5	1.113338
7.200000E-5	1.110533
7.360000E-5	1.110407
7.520000E-5	1.109301
7.680000E-5	1.108984
7.840000E-5	1.107858
8.000000E-5	1.106749
8.160000E-5	1.105928
8.320000E-5	1.105715
8.480000E-5	1.103864
8.640000E-5	1.103294
8.800000E-5	1.102880
8.960000E-5	1.102574
9.120000E-5	1.102840
9.280000E-5	1.101728
9.440000E-5	1.100607
9.600000E-5	1.099800
9.760000E-5	1.100077
9.920000E-5	1.099951
0.000101	1.099094
0.000102	1.098551
0.000106	1.097573
0.000109	1.097038
0.000112	1.096423
0.000115	1.094773
0.000118	1.094740
0.000122	1.094110
0.000125	1.092873
0.000128	1.091967
0.000131	1.091886
0.000134	1.090617
0.000138	1.090235
0.000141	1.089215
0.000144	1.088594
0.000147	1.087493
0.000150	1.086502
0.000154	1.085762
0.000157	1.085603
0.000160	1.085083
0.000163	1.083344
0.000166	1.081716
0.000170	1.081804
0.000173	1.080926
0.000176	1.080280
0.000179	1.079941
0.000182	1.078856
0.000186	1.078089
0.000189	1.077250
0.000192	1.076386
0.000195	1.075715
0.000198	1.074807
0.000202	1.073703
0.000205	1.073233
0.000211	1.071696
0.000218	1.070307
0.000224	1.068492
0.000230	1.067750
0.000237	1.066132
0.000243	1.064410
0.000250	1.063128
0.000256	1.061221
0.000262	1.060099
0.000269	1.058127
0.000275	1.056279
0.000282	1.055288
0.000288	1.053387
0.000294	1.051957
0.000301	1.051237
0.000307	1.049402
0.000314	1.047717
0.000320	1.046611
0.000326	1.045341
0.000333	1.043630
0.000339	1.042304
0.000346	1.040213
0.000352	1.039074
0.000358	1.037289
0.000365	1.035161
0.000371	1.033989
0.000378	1.032059
0.000384	1.031229
0.000390	1.029756
0.000397	1.028174
0.000403	1.026877
0.000410	1.024863
0.000422	1.021998
0.000435	1.018830
0.000448	1.015956
0.000461	1.012905
0.000474	1.009219
0.000486	1.006440
0.000499	1.003059
0.000512	0.999405
0.000525	0.996514
0.000538	0.993772
0.000550	0.990503
0.000563	0.987365
0.000576	0.984095
0.000589	0.981136
0.000602	0.978100
0.000614	0.974795
0.000627	0.970993
0.000640	0.967966
0.000653	0.965152
0.000666	0.962039
0.000678	0.958689
0.000691	0.955315
0.000704	0.952036
0.000717	0.948622
0.000730	0.945581
0.000742	0.942387
0.000755	0.939232
0.000768	0.936278
0.000781	0.932532
0.000794	0.929440
0.000806	0.926151
0.000819	0.923522
0.000845	0.917050
0.000870	0.910554
0.000896	0.903877
0.000922	0.896853
0.000947	0.890297
0.000973	0.884271
0.000998	0.877996
0.001024	0.871709
0.001050	0.865722
0.001075	0.859161
0.001101	0.852769
0.001126	0.846778
0.001152	0.840362
0.001178	0.834195
0.001203	0.828137
0.001229	0.822542
0.001254	0.816151
0.001280	0.810288
0.001306	0.804443
0.001331	0.798355
0.001357	0.792793
0.001382	0.786572
0.001408	0.781032
0.001434	0.776070
0.001459	0.769617
0.001485	0.763555
0.001510	0.757890
0.001536	0.753315
0.001562	0.747505
0.001587	0.742316
0.001613	0.737265
0.001638	0.732076
0.001690	0.721843
0.001741	0.712021
0.001792	0.702118
0.001843	0.692575
0.001894	0.683720
0.001946	0.674190
0.001997	0.665870
0.002048	0.657701
0.002099	0.650088
0.002150	0.642478
0.002202	0.635111
0.002253	0.627818
0.002304	0.621133
0.002355	0.614198
0.002406	0.608363
0.002458	0.601897
0.002509	0.596105
0.002560	0.590925
0.002611	0.585860
0.002662	0.580218
0.002714	0.575548
0.002765	0.570232
0.002816	0.565448
0.002867	0.561077
0.002918	0.556654
0.002970	0.552763
0.003021	0.549065
0.003072	0.545540
0.003123	0.542040
0.003174	0.538318
0.003226	0.534954
0.003277	0.531929
0.003379	0.526337
0.003482	0.521295
0.003584	0.516539
0.003686	0.512459
0.003789	0.508702
0.003891	0.505772
0.003994	0.502663
0.004096	0.499805
0.004198	0.497348
0.004301	0.495012
0.004403	0.493169
0.004506	0.491343
0.004608	0.489960
0.004710	0.488363
0.004813	0.487452
0.004915	0.485987
0.005018	0.485491
0.005120	0.484832
0.005222	0.483706
0.005325	0.483230
0.005427	0.482289
0.005530	0.482109
0.005632	0.481986
0.005734	0.481565
0.005837	0.481126
0.005939	0.480170
0.006042	0.479358
0.006144	0.478354
0.006246	0.477566
0.006349	0.476825
0.006451	0.475754
0.006554	0.475120
0.006758	0.473596
0.006963	0.472294
0.007168	0.470662
0.007373	0.469297
0.007578	0.467255
0.007782	0.466229
0.007987	0.465163
0.008192	0.464145
0.008397	0.463331
0.008602	0.462075
0.008806	0.460481
0.009011	0.459424
0.009216	0.457930
0.009421	0.456716
0.009626	0.456346
0.009830	0.456447
0.010035	0.456160
0.010240	0.456292
0.010445	0.456362
0.010650	0.456609
0.010854	0.457717
0.011059	0.458594
0.011264	0.459517
0.011469	0.460340
0.011674	0.460641
0.011878	0.461061
0.012083	0.461205
0.012288	0.461423
0.012493	0.460780
0.012698	0.459553
0.012902	0.457873
0.013107	0.456284
0.013517	0.454522
0.013926	0.451313
0.014336	0.447406
0.014746	0.442839
0.015155	0.438961
0.015565	0.434848
0.015974	0.430799
0.016384	0.427536
0.016794	0.425689
0.017203	0.425065
0.017613	0.425698
0.018022	0.427470
0.018432	0.428940
0.018842	0.429588
0.019251	0.429789
0.019661	0.429274
0.020070	0.426841
0.020480	0.424642
0.020890	0.421580
0.021299	0.418732
0.021709	0.416680
0.022118	0.416408
0.022528	0.416846
0.022938	0.416871
0.023347	0.416774
0.023757	0.416469
0.024166	0.416065
0.024576	0.414931
0.024986	0.413726
0.025395	0.411389
0.025805	0.408506
0.026214	0.406009
0.027034	0.401720
0.027853	0.399134
0.028672	0.397122
0.029491	0.394670
0.030310	0.395458
0.031130	0.399160
0.031949	0.401697
0.032768	0.400793
0.033587	0.398558
0.034406	0.397548
0.035226	0.398556
0.036045	0.398316
0.036864	0.400150
0.037683	0.401527
0.038502	0.402601
0.039322	0.400474
0.040141	0.395534
0.040960	0.391361
0.041779	0.389560
0.042598	0.389830
0.043418	0.390421
0.044237	0.389783
0.045056	0.386472
0.045875	0.380837
0.046694	0.376666
0.047514	0.376603
0.048333	0.378209
0.049152	0.379374
0.049971	0.378092
0.050790	0.375682
0.051610	0.371311
0.052429	0.365194
0.054067	0.356059
0.055706	0.350945
0.057344	0.349416
0.058982	0.351423
0.060621	0.351950
0.062259	0.349013
0.063898	0.349537
0.065536	0.352920
0.067174	0.345663
0.068813	0.334516
0.070451	0.327592
0.072090	0.325358
0.073728	0.323440
0.075366	0.322671
0.077005	0.326085
0.078643	0.325979
0.080282	0.320530
0.081920	0.315151
0.083558	0.309453
0.085197	0.307324
0.086835	0.308283
0.088474	0.304383
0.090112	0.301685
0.091750	0.298808
0.093389	0.292268
0.095027	0.287196
0.096666	0.283444
0.098304	0.279591
0.099942	0.279030
0.101581	0.277620
0.103219	0.271210
0.104858	0.266926
0.108134	0.259972
0.111411	0.260054
0.114688	0.254757
0.117965	0.236084
0.121242	0.230003
0.124518	0.230897
0.127795	0.223766
0.131072	0.221886
0.134349	0.220541
0.137626	0.215829
0.140902	0.213793
0.144179	0.211080
0.147456	0.197580
0.150733	0.195557
0.154010	0.194024
0.157286	0.184647
0.160563	0.170239
0.163840	0.168321
0.167117	0.160437
0.170394	0.166186
0.173670	0.160299
0.176947	0.153959
0.180224	0.149949
0.183501	0.146178
0.186778	0.139009
0.190054	0.133540
0.193331	0.133228
0.196608	0.125058
0.199885	0.118185
0.203162	0.118062
0.206438	0.113848
0.209715	0.110433
0.216269	0.105692
0.222822	0.105267
0.229376	0.095841
0.235930	0.085897
0.242483	0.084559
0.249037	0.068936
0.255590	0.067766
0.262144	0.068639
0.268698	0.060831
0.275251	0.061407
0.281805	0.051623
0.288358	0.052874
0.294912	0.055677
0.301466	0.050916
0.308019	0.048657
0.314573	0.045474
0.321126	0.043512
0.327680	0.046748
0.334234	0.040759
0.340787	0.039273
0.347341	0.036406
0.353894	0.036044
0.360448	0.037450
0.367002	0.036864
0.373555	0.039712
0.380109	0.040543
0.386662	0.041714
0.393216	0.040042
0.399770	0.039496
0.406323	0.039356
0.412877	0.042280
0.419430	0.039765
0.432538	0.035262
0.445645	0.035705
0.458752	0.042619
0.471859	0.035275
0.484966	0.034598
0.498074	0.030602
0.511181	0.029124
0.524288	0.032728
0.537395	0.032369
0.550502	0.031386
0.563610	0.030096
0.576717	0.033616
0.589824	0.037898
0.602931	0.039725
0.616038	0.039097
0.629146	0.037218
0.642253	0.031391
0.655360	0.025048
0.668467	0.026218
0.681574	0.031202
0.694682	0.029406
0.707789	0.023451
0.720896	0.020368
0.734003	0.016828
0.747110	0.017085
0.760218	0.020214
0.773325	0.012751
0.786432	0.007393
0.799539	0.003813
0.812646	0.004787
0.825754	0.000688
0.838861	0.001525
0.865075	0.001103
0.891290	0.002587
0.917504	0.005645
0.943718	0.005622
0.969933	0.011473
0.996147	0.015934
1.022362	0.014772
1.048576	0.017373
1.074790	0.023943
1.101005	0.026772
1.127219	0.030185
1.153434	0.037236
1.179648	0.034563
1.205862	0.035958
1.232077	0.029035
1.258291	0.028495
1.284506	0.015235
1.310720	0.014221
1.336934	0.009433
1.363149	0.005857
1.389363	-0.001702
1.415578	-0.006877
1.441792	-0.009657
1.468006	-0.009828
1.494221	-0.015356
1.520435	-0.015043
1.546650	-0.015562
1.572864	-0.012314
1.599078	-0.003356
1.625293	0.011373
1.651507	0.024001
1.677722	0.033789
1.730150	0.046971
1.782579	0.045484
1.835008	0.034699
1.887437	0.023178
1.939866	0.012815
1.992294	0.006787
2.044723	-0.005244
2.097152	-0.016668
2.149581	-0.023913
2.202010	-0.023764
2.254438	-0.012207
2.306867	-0.003063
2.359296	0.006419
2.411725	0.010037
2.464154	0.018625
2.516582	0.013431
2.569011	0.021804
2.621440	0.029490
2.673869	0.037033
2.726298	0.039711
2.778726	0.037625
2.831155	0.030415
2.883584	0.023572
2.936013	0.019414
2.988442	0.018908
3.040870	0.022201
3.093299	0.024297
3.145728	0.018109
3.198157	0.000383
3.250586	-0.009623
3.303015	-0.016629
3.355443	-0.011873
3.460301	0.003553
3.565158	0.016374
3.670016	0.025829
3.774873	0.031015
3.879731	0.030915
3.984589	0.020583
4.089447	0.016617
4.194304	0.026770
4.299161	0.040834
4.404019	0.025352
4.508877	0.014317
4.613734	0.005634
4.718592	0.016417
4.823450	0.012380
4.928307	-0.003288
5.033165	-0.023867
5.138022	-0.044325
5.242880	-0.049903
5.347738	-0.026709
5.452595	-0.008131
5.557453	-0.007590
5.662311	-0.010561
5.767168	-0.005393
5.872025	-0.004956
5.976883	0.000674
6.081741	0.005173
6.186598	0.008712
6.291456	0.006165
6.396314	-0.002438
6.501171	-0.001228
6.606029	0.012836
6.710886	0.044341
6.920601	0.009068
7.130317	-0.022182
7.340032	-0.009109
7.549747	-0.024196
7.759462	-0.021842
7.969178	-0.016720
8.178893	-0.014821
8.388608	-0.008261
8.598323	0.026136
8.808039	-0.015070
9.017754	-0.011397
9.227468	-0.024251
9.437184	-0.009406
9.646899	0.007832
9.856614	0.023305
10.066330	0.010415
10.276045	0.018866
10.485760	0.001417
10.695476	-0.001935
10.905190	-0.004465
11.114905	0.007706
11.324621	0.019325
11.534336	0.028008
11.744051	-0.006214
11.953767	-0.006948
12.163482	0.000746
12.373197	-0.001197
12.582912	0.012652
12.792627	0.047162
13.002342	0.031425
13.212058	0.005907
13.421773	-0.014927
13.841203	-0.036311
14.260633	-0.020530
14.680064	-0.018818
15.099494	-0.043215
15.518925	-0.002694
15.938355	0.010501
16.357786	0.002928
16.777216	0.000705
17.196646	0.011311
17.616077	-0.005914
18.035507	-0.046815
18.454937	-0.020578
18.874369	-0.036574
19.293798	-0.016377
19.713228	-0.020511
20.132660	0.011597
20.552090	-0.011699
20.971519	0.000125
21.390951	0.014854
21.810381	0.014713
22.229811	0.003622
22.649242	-0.043890
23.068672	-0.014336
23.488102	-0.033116
23.907534	-0.005645
24.326963	-0.035324
24.746393	-0.033394
25.165825	-0.015423
25.585255	0.010737
26.004684	0.034679
26.424116	-0.032017
26.843546	0.005136
27.682405	-0.004236
28.521267	0.012277
29.360128	-0.010783
30.198988	0.007959
31.037849	-0.019221
31.876711	-0.014290
32.715572	-0.048787
33.554432	-0.031547
34.393291	-0.048356
35.232155	-0.052576
36.071014	-0.056082
36.909874	-0.018549
37.748737	0.010201
38.587597	0.042507
39.426456	-0.032626
40.265320	-0.021471
41.104179	0.024057
41.943039	0.064829
42.781902	0.018807
43.620762	0.000844
44.459621	-0.034946
45.298485	-0.033142
46.137344	-0.003135
46.976204	0.003270
47.815067	0.007729
48.653927	0.019430
49.492786	0.029697
50.331650	0.034391
51.170509	7.026092E-5
52.009369	-0.025771
52.848232	0.002360
53.687092	0.051857
55.364811	-0.069214
57.042534	0.000000
58.720257	NaN
60.397976	NaN
62.075699	NaN
63.753422	NaN
65.431145	NaN
67.108864	NaN
68.786583	NaN
70.464310	NaN
72.142029	NaN
73.819748	NaN
75.497475	NaN
77.175194	NaN
78.852913	NaN
80.530640	NaN
82.208359	NaN
83.886078	NaN
85.563805	NaN
87.241524	NaN
88.919243	NaN
90.596970	NaN
92.274689	NaN
93.952408	NaN
95.630135	NaN
97.307854	NaN
98.985573	NaN
100.663300	NaN
102.341019	NaN
104.018738	NaN
105.696465	NaN
107.374184	NaN
110.729622	NaN
114.085068	NaN
117.440514	NaN
120.795952	NaN
124.151398	NaN
127.506844	NaN
130.862289	NaN
134.217728	NaN
137.573166	NaN
140.928619	NaN
144.284058	NaN
147.639496	NaN
150.994949	NaN
154.350388	NaN
157.705826	NaN
161.061279	NaN
164.416718	NaN
167.772156	NaN
171.127609	NaN
174.483047	NaN
177.838486	NaN
181.193939	NaN
184.549377	NaN
187.904816	NaN
191.260269	NaN
194.615707	NaN
197.971146	NaN
201.326599	NaN
204.682037	NaN
208.037476	NaN
211.392929	NaN
214.748367	NaN
221.459244	NaN
228.170135	NaN
234.881027	NaN
241.591904	NaN
248.302795	NaN
255.013687	NaN
261.724579	NaN
268.435455	NaN
275.146332	NaN
281.857239	NaN
288.568115	NaN
295.278992	NaN
301.989899	NaN
308.700775	NaN
315.411652	NaN
322.122559	NaN
328.833435	NaN
335.544312	NaN
342.255219	NaN
348.966095	NaN
355.676971	NaN
362.387878	NaN
369.098755	NaN
375.809631	NaN
382.520538	NaN
389.231415	NaN
395.942291	NaN
402.653198	NaN
409.364075	NaN
416.074951	NaN
422.785858	NaN
429.496735	NaN
442.918488	NaN
456.340271	NaN
469.762054	NaN
483.183807	NaN
496.605591	NaN
510.027374	NaN
523.449158	NaN
536.870911	NaN
550.292664	NaN
563.714478	NaN
577.136230	NaN
590.557983	NaN
603.979797	NaN
617.401550	NaN
630.823303	NaN
644.245117	NaN
657.666870	NaN
671.088623	NaN
684.510437	NaN
697.932190	NaN
711.353943	NaN
724.775757	NaN
738.197510	NaN
751.619263	NaN
765.041077	NaN
778.462830	NaN
791.884583	NaN
805.306396	NaN
818.728149	NaN
832.149902	NaN
845.571716	NaN
858.993469	NaN
885.836975	NaN
912.680542	NaN
939.524109	NaN
966.367615	NaN
993.211182	NaN
1020.054749	NaN
1046.898315	NaN
1073.741821	NaN
1100.585327	NaN
1127.428955	NaN
1154.272461	NaN
1181.115967	NaN
1207.959595	NaN
1234.803101	NaN
1261.646606	NaN
1288.490234	NaN
1315.333740	NaN
1342.177246	NaN
1369.020874	NaN
1395.864380	NaN
1422.707886	NaN
1449.551514	NaN
1476.395020	NaN
1503.238525	NaN
1530.082153	NaN
1556.925659	NaN
1583.769165	NaN
1610.612793	NaN
1637.456299	NaN
1664.299805	NaN
1691.143433	NaN
1717.986938	NaN
1771.673950	NaN
1825.361084	NaN
1879.048218	NaN
1932.735229	NaN
1986.422363	NaN
2040.109497	NaN
2093.796631	NaN
2147.483643	NaN
2201.170654	NaN
2254.857910	NaN
2308.544922	NaN
2362.231934	NaN
2415.919189	NaN
2469.606201	NaN
2523.293213	NaN
2576.980469	NaN
2630.667480	NaN
2684.354492	NaN
2738.041748	NaN
2791.728760	NaN
2845.415771	NaN
2899.103027	NaN
2952.790039	NaN
3006.477051	NaN
3060.164307	NaN
3113.851318	NaN
3167.538330	NaN
3221.225586	NaN
3274.912598	NaN
3328.599609	NaN
3382.286865	NaN
3435.973877	NaN
0.000000	NaN
0.000000	NaN
0.000000	NaN
0.000000	NaN
0.000000	NaN
0.000000	NaN
0.000000	NaN
0.000000	NaN
0.000000	NaN
0.000000	NaN
0.000000	NaN
0.000000	NaN
0.000000	NaN
0.000000	NaN
0.000000	NaN
0.000000	NaN
0.000000	NaN
0.000000	NaN
0.000000	NaN
0.000000	NaN
0.000000	NaN
0.000000	NaN
0.000000	NaN
0.000000	NaN
0.000000	NaN
0.000000	NaN
0.000000	NaN
0.000000	NaN
0.000000	NaN
0.000000	NaN
0.000000	NaN
0.000000	NaN

Count Rate History (KHz)  CR CHA / CR CHB
0.000000	188.455582	194.683075
0.104858	169.572830	174.732208
0.209715	125.989914	131.092072
0.314573	136.146545	140.867233
0.419430	148.105621	153.598785
0.524288	118.761063	126.399994
0.629146	118.284225	121.421814
0.734003	103.321075	106.887817
0.838861	181.522369	192.050934
0.943718	202.188492	212.478638
1.048576	159.311295	164.737701
1.153434	177.621841	187.892914
1.258291	337.743759	364.961624
1.363149	213.212967	211.000443
1.468006	186.510086	191.411972
1.572864	242.490768	255.584717
1.677722	339.527130	361.232758
1.782579	476.493835	497.522354
1.887437	445.775986	466.718674
1.992294	447.454453	508.518219
2.097152	338.249207	316.400528
2.202010	238.819122	246.620178
2.306867	264.825821	292.339325
2.411725	272.016525	275.535583
2.516582	532.140732	561.952591
2.621440	317.058563	325.212479
2.726298	282.878876	300.521851
2.831155	324.277878	339.517593
2.936013	515.155792	533.313751
3.040870	550.670624	568.695068
3.145728	228.500366	247.955322
3.250586	207.710266	209.751129
3.355443	346.164703	365.982056
3.460301	401.506424	428.085327
3.565158	442.247391	471.773148
3.670016	565.223694	601.749420
3.774874	505.371094	536.823273
3.879731	350.475311	358.791351
3.984589	212.469101	208.406448
4.089446	152.702332	157.651901
4.194304	166.969299	174.369812
4.299162	140.247345	147.104263
4.404019	267.400742	279.121399
4.508877	264.911652	282.392502
4.613734	346.956253	404.205322
4.718592	676.059723	680.379868
4.823450	536.422729	561.342239
4.928307	309.705734	315.675735
5.033165	251.197815	265.960693
5.138022	162.773132	171.546936
5.242880	201.454163	208.835602
5.347738	168.132782	168.504715
5.452595	148.878098	163.202286
5.557453	258.550644	276.012421
5.662310	394.783020	397.357941
5.767168	189.495087	205.469131
5.872026	150.175095	151.920319
5.976883	191.259384	202.856064
6.081741	162.725449	164.461136
6.186598	147.113800	161.142349
6.291456	231.628418	244.855881
6.396314	489.206314	514.802933
6.501171	228.652954	236.015320
6.606029	259.695053	271.415710
6.710886	150.680542	164.346695
6.815744	191.335678	192.575455
6.920602	242.748260	250.520706
7.025459	251.197815	261.430740
7.130317	157.680511	161.676407
7.235174	161.933899	165.653229
7.340032	135.068893	144.147873
7.444890	240.955353	252.313614
7.549747	246.887207	256.519318
7.654605	165.061951	169.000626
7.759462	96.044540	98.915100
7.864320	88.062286	89.931488
7.969178	102.481842	104.684830
8.074035	132.560730	141.525269
8.178893	249.929428	273.523331
8.283750	449.399948	470.972061
8.388608	428.571701	448.665619
8.493466	223.016739	220.861435
8.598323	117.616653	121.412277
8.703181	289.592743	313.053131
8.808038	444.431305	467.834473
8.912896	343.885422	350.370407
9.017754	221.176147	226.707458
9.122611	179.901123	193.243027
9.227469	191.354752	196.266174
9.332326	360.040665	378.351212
9.437184	444.517136	469.722748
9.542042	392.723083	412.855148
9.646899	296.134949	297.546387
9.751757	430.335999	461.645126
9.856614	369.138718	379.209518
9.961472	797.624588	855.131149
10.066330	380.582809	379.858017
10.171187	252.170563	263.528824
10.276045	188.655853	197.267532
10.380902	242.586136	259.323120
10.485760	298.004150	320.739746
10.590618	150.279999	154.342651
10.695475	128.049850	130.100250
10.800333	132.122040	136.518478
10.905190	126.399994	133.304596
11.010048	136.117935	144.958496
11.114906	152.750015	166.463852
11.219763	197.076797	209.779739
11.324621	420.560837	454.845428
11.429478	923.061371	1015.844345
11.534336	1095.361710	1113.986969
11.639194	466.470718	484.380722
11.744051	157.508850	155.401230
11.848909	121.507645	127.582550
11.953766	95.720291	94.909668
12.058624	127.172470	131.702423
12.163482	128.011703	132.684708
12.268339	146.799088	153.169632
12.373197	241.575241	251.655579
12.478054	173.463821	187.597275
12.582912	123.567581	125.055313
12.687770	158.624649	170.583725
12.792627	194.330215	198.183060
12.897485	145.463943	150.127411
13.002342	103.969574	113.649368
13.107200	192.251205	202.198029
13.212058	173.635483	179.738998
13.316915	488.796234	520.811081
13.421773	271.749496	278.873444
13.526630	166.025162	168.561935
13.631488	145.702362	147.218704
13.736346	333.585739	348.310471
13.841203	555.753708	598.793030
13.946061	508.041382	533.065796
14.050918	537.424088	570.831299
14.155776	757.589340	809.736252
14.260634	1302.509308	1380.043030
14.365491	343.589783	351.476669
14.470349	247.726440	257.139206
14.575206	346.784592	376.319885
14.680064	595.722198	610.837936
14.784922	344.772339	378.932953
14.889779	347.757339	358.409882
14.994637	491.619110	522.813797
15.099494	329.141617	334.653854
15.204352	184.116364	188.045502
15.309210	125.646591	132.770538
15.414067	93.431473	97.837448
15.518925	115.575790	120.620728
15.623782	194.616318	207.815170
15.728640	387.630463	416.736603
15.833498	217.037201	221.900940
15.938355	275.459290	301.113129
16.043213	394.239426	411.891937
16.148070	368.375778	376.281738
16.252928	291.872025	304.861069
16.357786	181.493759	185.003281
16.462643	107.650757	106.725693
16.567501	106.496811	111.970901
16.672358	125.398636	128.841400
16.777216	130.996704	138.692856
16.882074	171.070099	177.021027
16.986931	204.238892	221.471786
17.091789	177.383423	173.692703
17.196646	124.530792	130.071640
17.301504	109.786987	117.902756
17.406362	107.221603	109.043121
17.511219	147.085190	160.589218
17.616077	248.651505	261.173248
17.720934	412.635803	439.300537
17.825792	281.858444	286.808014
17.930650	230.255127	232.820511
18.035507	338.497162	368.204117
18.140365	427.436829	440.111160
18.245222	420.665741	447.626114
18.350080	299.205780	303.211212
18.454938	219.430923	235.109329
18.559795	170.860291	179.777145
18.664653	214.548111	219.707489
18.769510	195.140839	203.027725
18.874368	164.794922	172.967911
18.979226	150.680542	161.857605
19.084083	123.233795	123.071671
19.188941	148.744583	152.301788
19.293798	97.103119	102.109909
19.398656	89.635849	95.643997
19.503514	114.879608	120.134354
19.608371	148.258209	154.371262
19.713229	143.404007	146.732330
19.818086	165.319443	171.918869
19.922944	120.983124	129.585266
20.027802	232.944489	239.725113
20.132659	292.081833	318.307877
20.237517	226.440430	226.173401
20.342374	204.801559	210.714340
20.447232	204.601288	214.662552
20.552090	238.151550	246.105194
20.656947	185.594559	189.313889
20.761805	198.545456	208.492279
20.866662	162.553787	170.412064
20.971520	177.812576	185.689926
21.076378	148.124695	153.694153
21.181235	116.891861	122.241974
21.286093	119.867325	123.004913
21.390950	115.680695	116.682053
21.495808	143.432617	146.770477
21.600666	183.496475	189.037323
21.705523	144.767761	148.382187
21.810381	87.375641	91.600418
21.915238	106.000900	107.488632
22.020096	97.951889	102.624893
22.124954	117.959976	124.788284
22.229811	232.076645	250.501633
22.334669	267.868042	273.389816
22.439526	263.385773	277.948380
22.544384	123.395920	129.165649
22.649242	128.202438	127.935410
22.754099	157.508850	166.969299
22.858957	394.363403	434.379578
22.963814	630.664825	670.633316
23.068672	321.607590	311.641693
23.173530	160.017014	158.033371
23.278387	138.254166	142.593384
23.383245	110.111237	115.041733
23.488102	114.755630	119.571686
23.592960	102.415085	106.792450
23.697818	106.782913	113.019943
23.802675	166.149139	174.465179
23.907533	154.628754	158.300400
24.012390	347.576141	391.502380
24.117248	516.767502	529.279709
24.222106	478.162766	494.127274
24.326963	293.073654	301.580429
24.431821	178.031921	183.420181
24.536678	158.720016	164.928436
24.641536	194.807053	212.297440
24.746394	440.254211	467.081070
24.851251	251.455307	247.764587
24.956109	227.899551	239.028931
25.060966	173.835754	184.364319
25.165824	225.172043	229.625702
25.270682	182.266235	185.966492
25.375539	190.048218	200.920105
25.480397	234.365463	259.227753
25.585254	338.039398	369.434357
25.690112	408.792496	400.781631
25.794970	597.591400	644.931793
25.899827	419.187546	424.089432
26.004685	387.668610	418.052673
26.109542	400.438309	425.062180
26.214400	384.216309	393.810272
26.319258	203.981400	210.189819
26.424115	185.394287	195.922852
26.528973	152.139664	156.192780
26.633830	139.026642	147.619247
26.738688	158.872604	164.375305
26.843546	248.661041	262.308121
26.948403	244.903564	253.553391
27.053261	358.009338	380.296707
27.158118	422.945023	444.002151
27.262976	250.263214	256.052017
27.367834	233.230591	259.532928
27.472691	355.844498	366.802216
27.577549	233.097076	238.895416
27.682406	212.593079	219.879150
27.787264	195.646286	207.920074
27.892122	219.049454	235.919952
27.996979	228.710175	228.137970
28.101837	166.358948	173.616409
28.206694	157.546997	163.421631
28.311552	166.168213	171.403885
28.416410	149.135590	158.004761
28.521267	169.363022	179.204941
28.626125	214.443207	223.646164
28.730982	195.121765	199.527740
28.835840	187.625885	193.595886
28.940698	147.953033	150.079727
29.045555	103.235245	107.202530
29.150413	111.083984	117.197037
29.255270	157.318115	163.125992
29.360128	201.444626	207.605362
29.464986	222.873688	229.940414
29.569843	219.221115	229.530334
29.674701	679.721832	747.842789
29.779558	736.713409	750.608444
29.884416	180.454254	186.452866
29.989274	106.287003	111.598969
30.094131	82.283020	87.003708
30.198989	80.776215	83.293915
30.303846	88.272095	88.672638
30.408704	87.528229	92.487335
30.513562	113.582611	118.093491
30.618419	132.598877	137.491226
30.723277	193.777084	201.253891
30.828134	245.819092	260.467529
30.932992	185.317993	197.887421
31.037850	226.440430	228.757858
31.142707	294.799805	322.237015
31.247565	184.593201	181.035995
31.352422	166.149139	173.969269
31.457280	646.657944	712.985992
31.562138	575.160980	585.260391
31.666995	269.842148	284.433365
31.771853	239.896774	240.716934
31.876710	160.112381	169.591904
31.981568	571.775436	605.230331
32.086426	289.077759	295.248032
32.191283	162.410736	165.872574
32.296141	126.523972	131.092072
32.400998	160.017014	170.698166
32.505856	205.020905	218.667984
32.610714	360.116959	394.964218
32.715571	361.518860	376.615524
32.820429	320.787430	308.475494
32.925286	192.651749	200.967789
33.030144	241.603851	255.565643
33.135002	444.793701	464.668274
33.239859	288.000107	295.896530
33.344717	162.963867	167.503357
33.449574	147.438049	153.894424
33.554432	207.176208	216.999054
33.659290	220.632553	233.821869
33.764147	191.745758	197.305679
33.869005	164.155960	172.433853
33.973862	116.901398	121.860504
34.078720	128.269196	131.473541
34.183578	147.809982	154.418945
34.288435	118.665695	120.153427
34.393293	149.946213	156.574249
34.498150	100.526810	99.525452
34.603008	94.652176	99.706650
34.707866	122.842789	129.356384
34.812723	133.056641	134.992599
34.917581	134.439468	138.378143
35.022438	131.711960	141.057968
35.127296	145.320892	151.777267
35.232154	213.861465	229.177475
35.337011	327.425003	369.367599
35.441869	458.955765	468.568802
35.546726	412.616730	419.015884
35.651584	612.878799	645.866394
35.756442	376.758575	392.961502
35.861299	428.400040	433.645248
35.966157	217.800140	230.350494
36.071014	155.229568	162.620544
36.175872	185.556412	199.213028
36.280730	330.533981	339.565277
36.385587	354.709625	370.798111
36.490445	261.220932	276.489258
36.595302	195.617676	194.196701
36.700160	192.642212	203.237534
36.805018	219.917297	232.362747
36.909875	204.734802	210.809708
37.014733	230.560303	248.012543
37.119590	197.172165	195.026398
37.224448	149.822235	157.823563
37.329306	150.232315	149.803162
37.434163	105.514526	106.716156
37.539021	77.400208	78.887939
37.643878	118.989944	123.558044
37.748736	125.169754	138.578415
37.853594	176.515579	182.046890
37.958451	125.036240	129.919052
38.063309	81.052780	82.836151
38.168166	70.018768	70.819855
38.273024	72.307587	76.208115
38.377882	83.427429	86.011887
38.482739	113.439560	118.103027
38.587597	152.292252	164.527893
38.692454	139.932632	141.115189
38.797312	94.347000	97.188950
38.902170	149.488449	156.707764
39.007027	246.067047	254.421234
39.111885	165.987015	167.217255
39.216742	130.834579	133.581161
39.321600	126.523972	132.255554
39.426458	155.830383	165.166855
39.531315	301.446915	333.938599
39.636173	356.550217	355.358124
39.741030	474.214554	489.282608
39.845888	482.110977	506.715775
39.950746	526.580811	552.558899
40.055603	473.365784	527.133942
40.160461	656.986237	667.791367
40.265318	233.583450	232.048035
40.370176	171.260834	174.598694
40.475034	159.406662	169.229507
40.579891	153.360367	158.100128
40.684749	159.063339	168.218613
40.789606	113.000870	115.442276
40.894464	113.286972	118.246078
40.999322	139.532089	148.839951
41.104179	163.259506	165.243149
41.209037	138.139725	143.089294
41.313894	127.487183	131.530762
41.418752	155.916214	170.164108
41.523610	197.830200	205.802917
41.628467	281.038284	300.903320
41.733325	407.686234	428.009033
41.838182	413.494110	444.917679
41.943040	353.908539	355.539322
42.047898	207.967758	218.572617
42.152755	188.322067	193.872452
42.257613	106.019974	108.470917
42.362470	107.364655	112.047195
42.467328	145.702362	159.692764
42.572186	376.939774	402.002335
42.677043	508.337021	523.462296
42.781901	327.129364	345.859528
42.886758	328.893661	364.894867
42.991616	317.211151	310.926437
43.096474	279.664993	298.500061
43.201331	272.436142	276.165009
43.306189	223.455429	230.569839
43.411046	249.195099	275.249481
43.515904	303.621292	298.633575
43.620762	163.097382	164.890289
43.725619	150.957108	158.710480
43.830477	143.394470	149.354935
43.935334	141.735077	148.897171
44.040192	133.018494	142.154694
44.145050	169.963837	175.790787
44.249907	212.488174	225.048065
44.354765	530.118942	576.219559
44.459622	379.734039	379.924774
44.564480	357.704163	383.148193
44.669338	301.008224	310.211182
44.774195	225.801468	242.776871
44.879053	208.768845	206.832886
44.983910	164.566040	172.567368
45.088768	95.624924	93.450546
45.193626	86.936951	90.417862
45.298483	90.551376	93.135834
45.403341	144.119263	154.600143
45.508198	290.203094	302.877426
45.613056	258.541107	271.644592
45.717914	316.114426	328.817368
45.822771	554.122925	589.113235
45.927629	452.823639	473.623276
46.032486	290.746689	310.802460
46.137344	313.577652	327.529907
46.242202	385.751724	401.735306
46.347059	179.309845	174.503326
46.451917	128.717422	129.308701
46.556774	130.090714	136.451721
46.661632	117.368698	119.409561
46.766490	103.960037	106.992722
46.871347	81.777573	86.364746
46.976205	97.236633	99.306107
47.081062	110.845566	116.357803
47.185920	153.942108	159.130096
47.290778	187.139511	189.533234
47.395635	131.740570	143.737793
47.500493	162.630081	161.418915
47.605350	124.034882	130.157471
47.710208	149.078369	160.284042
47.815066	244.426727	269.145966
47.919923	580.463409	595.359802
48.024781	310.297012	329.208374
48.129638	175.619125	171.995163
48.234496	146.360397	150.413513
48.339354	173.854828	190.191269
48.444211	153.493881	149.698257
48.549069	92.010498	97.103119
48.653926	77.390671	82.120895
48.758784	103.502274	109.272003
48.863642	127.515793	131.654739
48.968499	132.827759	138.664246
49.073357	142.679214	150.938034
49.178214	236.015320	256.834030
49.283072	181.207657	175.037384
49.387930	116.577148	125.722885
49.492787	98.743439	95.348358
49.597645	82.502365	86.212158
49.702502	138.292313	145.053864
49.807360	166.950226	181.703568
49.912218	293.292999	321.903229
50.017075	574.169159	603.752136
50.121933	482.091904	512.132645
50.226790	314.607620	308.980942
50.331648	259.647369	270.767212
50.436506	192.270279	195.960999
50.541363	109.653473	113.391876
50.646221	136.232376	140.495300
50.751078	157.546997	168.457031
50.855936	212.745667	220.022202
50.960794	237.798691	247.669220
51.065651	194.072723	206.632614
51.170509	138.301849	140.218735
51.275366	99.220276	100.774765
51.380224	86.784363	90.713501
51.485082	163.087845	179.862976
51.589939	652.208328	719.881058
51.694797	842.838287	873.250961
51.799654	432.462692	436.182022
51.904512	163.431168	176.773071
52.009370	158.615112	161.228180
52.114227	258.569717	267.276764
52.219085	713.472366	751.743317
52.323942	673.618317	736.598969
52.428800	614.910126	632.343292
52.533658	295.410156	302.371979
52.638515	470.323563	493.860245
52.743373	569.982529	609.827042
52.848230	706.653595	748.672485
52.953088	995.473862	1062.555313
53.057946	635.499954	663.423538
53.162803	289.087296	295.858383
53.267661	351.505280	380.220413
53.372518	582.418442	630.435944
53.477376	270.309448	250.606537
53.582234	175.905228	183.973312
53.687091	261.440277	273.904800
53.791949	157.194138	160.799026
53.896806	195.512772	212.144852
54.001664	339.355469	365.533829
54.106522	394.172668	405.883789
54.211379	217.170715	218.029022
54.316237	200.767517	216.484070
54.421094	176.153183	181.732178
54.525952	179.729462	182.170868
54.630810	384.130478	417.871475
54.735667	476.264954	494.785309
54.840525	234.584808	228.977203
54.945382	125.932693	134.983063
55.050240	332.651138	348.224640
55.155098	227.756500	232.172012
55.259955	267.047882	295.820236
55.364813	788.736343	819.787979
55.469670	885.810852	953.397751
55.574528	528.316498	559.120178
55.679386	539.121628	566.606522
55.784243	285.549164	292.758942
55.889101	244.436264	254.764557
55.993958	162.353516	163.841248
56.098816	122.623444	128.383636
56.203674	119.104385	123.987198
56.308531	263.175964	278.625488
56.413389	701.932907	754.232407
56.518246	962.200165	1033.515930
56.623104	639.886856	645.647049
56.727962	397.100449	421.123505
56.832819	269.966125	270.166397
56.937677	266.017914	286.607742
57.042534	306.596756	315.027237
57.147392	284.671783	298.624039
57.252250	258.779526	273.838043
57.357107	314.159393	322.713852
57.461965	132.141113	132.961273
57.566822	287.275314	326.538086
57.671680	518.398285	558.614731
57.776538	551.395416	558.881760
57.881395	275.897980	279.903412
57.986253	164.804459	172.071457
58.091110	137.195587	143.289566
58.195968	112.876892	116.014481
58.300826	138.225555	145.988464
58.405683	368.795395	426.902771
58.510541	730.123520	729.827881
58.615398	215.396881	225.582123
58.720256	137.414932	145.940781
58.825114	236.091614	242.338181
58.929971	547.885895	584.497452
59.034829	617.790222	664.167404
59.139686	419.807434	423.040390
59.244544	233.039856	245.914459
59.349402	478.639603	501.480103
59.454259	426.683426	441.884995
59.559117	271.739960	293.512344
59.663974	593.357086	622.100830
