ALV-5000/E-WIN Data
Date :	"24-Feb-12"
Time :	"19:30:32"
Samplename : 	""
SampMemo(0) : 	""
SampMemo(1) : 	""
SampMemo(2) : 	""
SampMemo(3) : 	""
SampMemo(4) : 	""
SampMemo(5) : 	""
SampMemo(6) : 	""
SampMemo(7) : 	""
SampMemo(8) : 	""
SampMemo(9) : 	""
Temperature [K] :	     298.16000
Viscosity [cp]  :	       0.89000
Refractive Index:	       1.33200
Wavelength [nm] :	     488.00000
Angle [°]       :	      90.00000
Duration [s]    :	        10
Runs            :	         3
Mode            :	"DUAL AUTO CH0"
MeanCR0 [kHz]   :	    2652.99219
MeanCR1 [kHz]   :	       0.00000

"Correlation (Multi, Averaged)"
"Lag [ms]"	"Average(0)"	"Run  1"	"Run  2"	"Run  3"	"Average(1)"	" 1,   0.000"	" 2,   0.000"	" 3,   0.000"	
  4.00000E-004	 -1.33893E-003	 -1.30530E-003	 -1.55422E-003	 -1.15728E-003	 -1.19171E-003	 -1.33010E-003	 -1.19497E-003	 -1.05006E-003	
  8.00000E-004	  2.08588E-003	  1.99233E-003	  1.96173E-003	  2.30357E-003	  2.56288E-003	  2.58630E-003	  2.79834E-003	  2.30401E-003	
  1.20000E-003	  1.89237E-003	  1.67298E-003	  1.93752E-003	  2.06661E-003	  3.09749E-003	  3.01093E-003	  2.94226E-003	  3.33928E-003	
  1.60000E-003	  1.79050E-003	  1.86227E-003	  1.68520E-003	  1.82402E-003	  2.76354E-003	  2.68063E-003	  2.81891E-003	  2.79109E-003	
  2.00000E-003	  1.64600E-003	  1.60441E-003	  1.45140E-003	  1.88219E-003	  2.26407E-003	  2.05259E-003	  2.30113E-003	  2.43850E-003	
  2.40000E-003	  1.45338E-003	  1.41731E-003	  1.26592E-003	  1.67690E-003	  2.05643E-003	  2.39759E-003	  1.81474E-003	  1.95696E-003	
  2.80000E-003	  1.32687E-003	  1.31627E-003	  1.24923E-003	  1.41511E-003	  1.79971E-003	  1.68838E-003	  1.66871E-003	  2.04203E-003	
  3.20000E-003	  1.01650E-003	  8.24195E-004	  1.04852E-003	  1.17680E-003	  2.01991E-003	  1.97445E-003	  1.76453E-003	  2.32076E-003	
  3.60000E-003	  1.12923E-003	  1.17405E-003	  8.31018E-004	  1.38262E-003	  2.13946E-003	  2.09177E-003	  1.89254E-003	  2.43407E-003	
  4.00000E-003	  1.04164E-003	  8.19193E-004	  1.26259E-003	  1.04315E-003	  2.15857E-003	  2.30295E-003	  1.88280E-003	  2.28996E-003	
  4.40000E-003	  9.23430E-004	  5.83525E-004	  9.40755E-004	  1.24601E-003	  2.41006E-003	  1.98531E-003	  2.49441E-003	  2.75046E-003	
  4.80000E-003	  1.10980E-003	  9.98014E-004	  1.03033E-003	  1.30105E-003	  2.15687E-003	  2.07096E-003	  1.91202E-003	  2.48764E-003	
  5.20000E-003	  1.06179E-003	  1.00815E-003	  1.01761E-003	  1.15959E-003	  2.32715E-003	  2.04009E-003	  2.41214E-003	  2.52924E-003	
  5.60000E-003	  1.15613E-003	  1.06980E-003	  9.16688E-004	  1.48190E-003	  2.13026E-003	  1.95970E-003	  2.04892E-003	  2.38216E-003	
  6.00000E-003	  1.11604E-003	  8.06008E-004	  1.10672E-003	  1.43540E-003	  2.07073E-003	  1.82897E-003	  1.78262E-003	  2.60060E-003	
  6.40000E-003	  1.06787E-003	  8.36593E-004	  1.12910E-003	  1.23793E-003	  2.06390E-003	  2.01764E-003	  1.84012E-003	  2.33396E-003	
  7.20000E-003	  1.03177E-003	  9.58050E-004	  1.07289E-003	  1.06438E-003	  2.12627E-003	  2.02125E-003	  2.03788E-003	  2.31967E-003	
  8.00000E-003	  8.19595E-004	  6.53427E-004	  8.47100E-004	  9.58259E-004	  2.25562E-003	  2.17208E-003	  2.20204E-003	  2.39274E-003	
  8.80000E-003	  1.00890E-003	  8.73244E-004	  9.27702E-004	  1.22576E-003	  2.09199E-003	  1.90901E-003	  2.11997E-003	  2.24699E-003	
  9.60000E-003	  9.44854E-004	  9.97947E-004	  8.52884E-004	  9.83729E-004	  2.03238E-003	  2.02730E-003	  2.10751E-003	  1.96232E-003	
  1.04000E-002	  1.07683E-003	  9.01071E-004	  1.03772E-003	  1.29169E-003	  2.02351E-003	  1.92083E-003	  1.91075E-003	  2.23896E-003	
  1.12000E-002	  1.03262E-003	  1.03553E-003	  9.70619E-004	  1.09171E-003	  2.20146E-003	  2.04123E-003	  2.15169E-003	  2.41145E-003	
  1.20000E-002	  9.98241E-004	  7.79870E-004	  1.02255E-003	  1.19231E-003	  2.16221E-003	  1.78933E-003	  2.14804E-003	  2.54928E-003	
  1.28000E-002	  9.13281E-004	  8.13854E-004	  8.83212E-004	  1.04278E-003	  2.15924E-003	  2.04839E-003	  2.21573E-003	  2.21361E-003	
  1.44000E-002	  9.79117E-004	  8.67503E-004	  9.13705E-004	  1.15614E-003	  2.18348E-003	  1.98330E-003	  2.14670E-003	  2.42044E-003	
  1.60000E-002	  9.88389E-004	  9.10109E-004	  9.79358E-004	  1.07570E-003	  2.02546E-003	  1.89301E-003	  1.91992E-003	  2.26345E-003	
  1.76000E-002	  9.75570E-004	  8.91965E-004	  1.00806E-003	  1.02669E-003	  2.22090E-003	  2.07092E-003	  2.16268E-003	  2.42909E-003	
  1.92000E-002	  1.04449E-003	  9.32395E-004	  1.01255E-003	  1.18853E-003	  2.09652E-003	  1.98018E-003	  2.01709E-003	  2.29229E-003	
  2.08000E-002	  1.00165E-003	  8.14490E-004	  1.09150E-003	  1.09895E-003	  2.18373E-003	  2.14119E-003	  1.94993E-003	  2.46008E-003	
  2.24000E-002	  9.19439E-004	  7.89144E-004	  8.20346E-004	  1.14883E-003	  2.03399E-003	  1.80010E-003	  2.01276E-003	  2.28909E-003	
  2.40000E-002	  1.00579E-003	  9.15982E-004	  1.06647E-003	  1.03491E-003	  2.10806E-003	  2.03327E-003	  2.14659E-003	  2.14433E-003	
  2.56000E-002	  1.05214E-003	  9.23934E-004	  9.72258E-004	  1.26022E-003	  1.93037E-003	  1.81554E-003	  1.92111E-003	  2.05446E-003	
  2.88000E-002	  9.89313E-004	  9.11030E-004	  9.47634E-004	  1.10927E-003	  1.92070E-003	  1.71966E-003	  1.89833E-003	  2.14412E-003	
  3.20000E-002	  1.00245E-003	  8.96002E-004	  9.85834E-004	  1.12551E-003	  1.98060E-003	  1.86683E-003	  1.89989E-003	  2.17508E-003	
  3.52000E-002	  9.42255E-004	  8.15447E-004	  9.61102E-004	  1.05022E-003	  1.91567E-003	  1.65538E-003	  1.89571E-003	  2.19592E-003	
  3.84000E-002	  9.72200E-004	  7.93197E-004	  9.46161E-004	  1.17724E-003	  1.95347E-003	  1.93261E-003	  1.75664E-003	  2.17114E-003	
  4.16000E-002	  1.03947E-003	  9.32175E-004	  9.41723E-004	  1.24452E-003	  1.90511E-003	  1.91008E-003	  1.72623E-003	  2.07901E-003	
  4.48000E-002	  1.01164E-003	  1.03743E-003	  8.71191E-004	  1.12629E-003	  1.92027E-003	  1.82016E-003	  1.72641E-003	  2.21423E-003	
  4.80000E-002	  8.84363E-004	  7.43374E-004	  9.49405E-004	  9.60309E-004	  1.76502E-003	  1.57394E-003	  1.79867E-003	  1.92245E-003	
  5.12000E-002	  9.64877E-004	  8.76269E-004	  9.29525E-004	  1.08884E-003	  1.80380E-003	  1.64385E-003	  1.78241E-003	  1.98514E-003	
  5.76000E-002	  9.33950E-004	  8.55964E-004	  8.59499E-004	  1.08639E-003	  1.77642E-003	  1.67741E-003	  1.68679E-003	  1.96507E-003	
  6.40000E-002	  9.62885E-004	  8.52901E-004	  9.25523E-004	  1.11023E-003	  1.73736E-003	  1.58977E-003	  1.69323E-003	  1.92908E-003	
  7.04000E-002	  9.43710E-004	  8.47649E-004	  8.64992E-004	  1.11849E-003	  1.71232E-003	  1.65659E-003	  1.58702E-003	  1.89334E-003	
  7.68000E-002	  9.54154E-004	  8.20867E-004	  9.28485E-004	  1.11311E-003	  1.69145E-003	  1.64975E-003	  1.60523E-003	  1.81936E-003	
  8.32000E-002	  9.34972E-004	  8.65661E-004	  8.96315E-004	  1.04294E-003	  1.64865E-003	  1.52360E-003	  1.55369E-003	  1.86866E-003	
  8.96000E-002	  9.35290E-004	  8.20019E-004	  8.84890E-004	  1.10096E-003	  1.66686E-003	  1.53587E-003	  1.62376E-003	  1.84094E-003	
  9.60000E-002	  9.56819E-004	  8.63735E-004	  9.18319E-004	  1.08840E-003	  1.60748E-003	  1.52173E-003	  1.49337E-003	  1.80733E-003	
  1.02400E-001	  9.50697E-004	  8.27382E-004	  9.32274E-004	  1.09244E-003	  1.62044E-003	  1.50469E-003	  1.49432E-003	  1.86231E-003	
  1.15200E-001	  9.09667E-004	  7.96085E-004	  8.61595E-004	  1.07132E-003	  1.61349E-003	  1.46519E-003	  1.52707E-003	  1.84821E-003	
  1.28000E-001	  9.09347E-004	  7.56222E-004	  8.95174E-004	  1.07664E-003	  1.51461E-003	  1.45062E-003	  1.45159E-003	  1.64161E-003	
  1.40800E-001	  9.09564E-004	  8.15743E-004	  8.73961E-004	  1.03899E-003	  1.50568E-003	  1.43798E-003	  1.40942E-003	  1.66965E-003	
  1.53600E-001	  9.04884E-004	  8.23435E-004	  8.41468E-004	  1.04975E-003	  1.49209E-003	  1.44166E-003	  1.38983E-003	  1.64479E-003	
  1.66400E-001	  9.13597E-004	  7.74195E-004	  8.89272E-004	  1.07732E-003	  1.49154E-003	  1.42589E-003	  1.38604E-003	  1.66269E-003	
  1.79200E-001	  8.80795E-004	  7.52281E-004	  8.58633E-004	  1.03147E-003	  1.42904E-003	  1.33424E-003	  1.30857E-003	  1.64432E-003	
  1.92000E-001	  8.96853E-004	  8.09356E-004	  8.28909E-004	  1.05230E-003	  1.39441E-003	  1.27514E-003	  1.30181E-003	  1.60629E-003	
  2.04800E-001	  8.82598E-004	  7.73479E-004	  8.20001E-004	  1.05431E-003	  1.44592E-003	  1.36518E-003	  1.36593E-003	  1.60663E-003	
  2.30400E-001	  8.76892E-004	  7.88156E-004	  8.38468E-004	  1.00405E-003	  1.42196E-003	  1.33241E-003	  1.31081E-003	  1.62265E-003	
  2.56000E-001	  8.54359E-004	  7.57377E-004	  8.01626E-004	  1.00407E-003	  1.38569E-003	  1.29851E-003	  1.30502E-003	  1.55355E-003	
  2.81600E-001	  8.49906E-004	  7.55533E-004	  7.99158E-004	  9.95026E-004	  1.37234E-003	  1.24676E-003	  1.27527E-003	  1.59498E-003	
  3.07200E-001	  8.36612E-004	  7.05595E-004	  8.07432E-004	  9.96808E-004	  1.37118E-003	  1.25292E-003	  1.30381E-003	  1.55680E-003	
  3.32800E-001	  8.33584E-004	  7.42199E-004	  7.92792E-004	  9.65760E-004	  1.34278E-003	  1.24581E-003	  1.24686E-003	  1.53567E-003	
  3.58400E-001	  8.09997E-004	  6.98259E-004	  7.63321E-004	  9.68411E-004	  1.33778E-003	  1.25788E-003	  1.23220E-003	  1.52325E-003	
  3.84000E-001	  8.31982E-004	  7.26144E-004	  7.82337E-004	  9.87466E-004	  1.31908E-003	  1.23894E-003	  1.21568E-003	  1.50260E-003	
  4.09600E-001	  7.97409E-004	  6.75283E-004	  7.51038E-004	  9.65907E-004	  1.28926E-003	  1.20718E-003	  1.19423E-003	  1.46636E-003	
  4.60800E-001	  7.63128E-004	  6.60737E-004	  7.36778E-004	  8.91868E-004	  1.26516E-003	  1.18795E-003	  1.16495E-003	  1.44260E-003	
  5.12000E-001	  7.33379E-004	  6.28696E-004	  7.07775E-004	  8.63666E-004	  1.23957E-003	  1.14562E-003	  1.12027E-003	  1.45282E-003	
  5.63200E-001	  7.23426E-004	  6.12718E-004	  6.86468E-004	  8.71093E-004	  1.16961E-003	  1.09709E-003	  1.04556E-003	  1.36617E-003	
  6.14400E-001	  7.08738E-004	  6.13430E-004	  6.67274E-004	  8.45509E-004	  1.14236E-003	  1.05690E-003	  1.05258E-003	  1.31759E-003	
  6.65600E-001	  6.73348E-004	  5.68510E-004	  6.30923E-004	  8.20611E-004	  1.11926E-003	  1.05263E-003	  1.01013E-003	  1.29502E-003	
  7.16800E-001	  6.71617E-004	  5.65977E-004	  6.48365E-004	  8.00509E-004	  1.08313E-003	  1.03582E-003	  9.77616E-004	  1.23596E-003	
  7.68000E-001	  6.48401E-004	  5.51774E-004	  5.98131E-004	  7.95297E-004	  1.05104E-003	  9.63966E-004	  9.87075E-004	  1.20208E-003	
  8.19200E-001	  6.56098E-004	  5.50890E-004	  6.22680E-004	  7.94725E-004	  1.03714E-003	  9.68438E-004	  9.56881E-004	  1.18610E-003	
  9.21600E-001	  6.39276E-004	  5.28098E-004	  6.08365E-004	  7.81366E-004	  1.06125E-003	  9.91553E-004	  9.46767E-004	  1.24542E-003	
  1.02400E+000	  6.41402E-004	  5.35959E-004	  6.00835E-004	  7.87410E-004	  1.04306E-003	  9.69515E-004	  9.55444E-004	  1.20422E-003	
  1.12640E+000	  6.16273E-004	  5.03533E-004	  5.78496E-004	  7.66791E-004	  1.06416E-003	  1.00645E-003	  9.61176E-004	  1.22485E-003	
  1.22880E+000	  6.02387E-004	  4.81458E-004	  5.77550E-004	  7.48153E-004	  1.02887E-003	  9.45582E-004	  9.51803E-004	  1.18921E-003	
  1.33120E+000	  5.62998E-004	  4.51456E-004	  5.23426E-004	  7.14113E-004	  9.95769E-004	  9.29553E-004	  8.99563E-004	  1.15819E-003	
  1.43360E+000	  5.61855E-004	  4.54070E-004	  5.39058E-004	  6.92436E-004	  9.62449E-004	  8.81740E-004	  8.70815E-004	  1.13479E-003	
  1.53600E+000	  5.40702E-004	  4.25030E-004	  5.12055E-004	  6.85022E-004	  9.49685E-004	  8.75778E-004	  8.49750E-004	  1.12353E-003	
  1.63840E+000	  5.51333E-004	  4.36715E-004	  5.14865E-004	  7.02419E-004	  9.40136E-004	  8.60425E-004	  8.45954E-004	  1.11403E-003	
  1.84320E+000	  5.41923E-004	  4.24856E-004	  5.09828E-004	  6.91087E-004	  9.14704E-004	  8.34318E-004	  8.23094E-004	  1.08670E-003	
  2.04800E+000	  5.11493E-004	  4.06641E-004	  4.64174E-004	  6.63663E-004	  8.86999E-004	  7.99507E-004	  7.91390E-004	  1.07010E-003	
  2.25280E+000	  5.06563E-004	  3.96119E-004	  4.73681E-004	  6.49888E-004	  8.86965E-004	  8.02814E-004	  7.96884E-004	  1.06120E-003	
  2.45760E+000	  4.95964E-004	  3.90839E-004	  4.42666E-004	  6.54388E-004	  8.38295E-004	  7.77365E-004	  7.36163E-004	  1.00136E-003	
  2.66240E+000	  4.84271E-004	  3.96549E-004	  4.40167E-004	  6.16098E-004	  8.21180E-004	  7.50928E-004	  7.31621E-004	  9.80992E-004	
  2.86720E+000	  4.73267E-004	  3.74162E-004	  4.22502E-004	  6.23139E-004	  8.24817E-004	  7.54852E-004	  7.19533E-004	  1.00007E-003	
  3.07200E+000	  4.75601E-004	  3.83656E-004	  4.24712E-004	  6.18436E-004	  8.25718E-004	  7.47185E-004	  7.55366E-004	  9.74602E-004	
  3.27680E+000	  4.63397E-004	  3.67557E-004	  4.13544E-004	  6.09089E-004	  7.94898E-004	  7.20561E-004	  7.23208E-004	  9.40926E-004	
  3.68640E+000	  4.45123E-004	  3.41574E-004	  4.01515E-004	  5.92282E-004	  7.77924E-004	  7.01713E-004	  6.99110E-004	  9.32950E-004	
  4.09600E+000	  4.42036E-004	  3.33445E-004	  3.93171E-004	  5.99491E-004	  7.50100E-004	  6.71576E-004	  6.79595E-004	  8.99128E-004	
  4.50560E+000	  4.33796E-004	  3.21642E-004	  3.90910E-004	  5.88835E-004	  7.36535E-004	  6.61046E-004	  6.61869E-004	  8.86689E-004	
  4.91520E+000	  4.29167E-004	  3.26613E-004	  3.80928E-004	  5.79960E-004	  7.27697E-004	  6.44506E-004	  6.52358E-004	  8.86227E-004	
  5.32480E+000	  4.26821E-004	  3.21692E-004	  3.91711E-004	  5.67062E-004	  7.19162E-004	  6.57185E-004	  6.44715E-004	  8.55586E-004	
  5.73440E+000	  4.18889E-004	  3.18010E-004	  3.81560E-004	  5.57097E-004	  7.12860E-004	  6.45087E-004	  6.29529E-004	  8.63966E-004	
  6.14400E+000	  4.10248E-004	  3.12012E-004	  3.76036E-004	  5.42696E-004	  6.94645E-004	  6.39019E-004	  6.15856E-004	  8.29059E-004	
  6.45120E+000	  3.97598E-004	  3.11250E-004	  3.57533E-004	  5.24011E-004	  6.92228E-004	  6.46679E-004	  6.13105E-004	  8.16901E-004	
  7.27040E+000	  3.95810E-004	  3.11671E-004	  3.55161E-004	  5.20598E-004	  6.80545E-004	  6.36222E-004	  5.98135E-004	  8.07278E-004	
  8.08960E+000	  3.89833E-004	  3.03591E-004	  3.53356E-004	  5.12551E-004	  6.76356E-004	  6.30136E-004	  5.87133E-004	  8.11800E-004	
  8.90880E+000	  3.84760E-004	  3.04747E-004	  3.48036E-004	  5.01496E-004	  6.63517E-004	  6.16239E-004	  5.70897E-004	  8.03416E-004	
  9.72800E+000	  3.79957E-004	  2.93792E-004	  3.43709E-004	  5.02369E-004	  6.54301E-004	  6.19285E-004	  5.58271E-004	  7.85348E-004	
  1.05472E+001	  3.73609E-004	  2.92502E-004	  3.29809E-004	  4.98518E-004	  6.44803E-004	  6.05865E-004	  5.55954E-004	  7.72589E-004	
  1.13664E+001	  3.67643E-004	  2.85346E-004	  3.23724E-004	  4.93859E-004	  6.47859E-004	  5.90511E-004	  5.68090E-004	  7.84976E-004	
  1.21856E+001	  3.72755E-004	  2.88267E-004	  3.23186E-004	  5.06811E-004	  6.39004E-004	  5.83441E-004	  5.59230E-004	  7.74342E-004	
  1.30048E+001	  3.66377E-004	  2.82543E-004	  3.21442E-004	  4.95146E-004	  6.22321E-004	  5.66350E-004	  5.40188E-004	  7.60424E-004	
  1.46432E+001	  3.64990E-004	  2.86490E-004	  3.21354E-004	  4.87127E-004	  6.24260E-004	  5.68775E-004	  5.34315E-004	  7.69689E-004	
  1.62816E+001	  3.63554E-004	  2.80417E-004	  3.18505E-004	  4.91742E-004	  6.05648E-004	  5.56823E-004	  5.20872E-004	  7.39250E-004	
  1.79200E+001	  3.61324E-004	  2.75787E-004	  3.21586E-004	  4.86600E-004	  6.00159E-004	  5.58308E-004	  5.07251E-004	  7.34918E-004	
  1.95584E+001	  3.51337E-004	  2.65161E-004	  3.15342E-004	  4.73508E-004	  5.95232E-004	  5.55178E-004	  5.00929E-004	  7.29587E-004	
  2.11968E+001	  3.53076E-004	  2.64732E-004	  3.13817E-004	  4.80678E-004	  5.97518E-004	  5.54620E-004	  5.10181E-004	  7.27752E-004	
  2.28352E+001	  3.44671E-004	  2.58589E-004	  3.09361E-004	  4.66062E-004	  5.81893E-004	  5.42613E-004	  4.86102E-004	  7.16963E-004	
  2.44736E+001	  3.38111E-004	  2.49016E-004	  3.08175E-004	  4.57142E-004	  5.77257E-004	  5.29183E-004	  4.82061E-004	  7.20528E-004	
  2.61120E+001	  3.31688E-004	  2.46614E-004	  2.95544E-004	  4.52905E-004	  5.74432E-004	  5.19242E-004	  4.81323E-004	  7.22731E-004	
  2.93888E+001	  3.31418E-004	  2.39328E-004	  2.96060E-004	  4.58867E-004	  5.65766E-004	  4.97187E-004	  4.91516E-004	  7.08596E-004	
  3.26656E+001	  3.30482E-004	  2.46451E-004	  2.90932E-004	  4.54063E-004	  5.57434E-004	  4.81282E-004	  5.06091E-004	  6.84931E-004	
  3.59424E+001	  3.39428E-004	  2.57281E-004	  3.01041E-004	  4.59960E-004	  5.57479E-004	  5.00884E-004	  4.86812E-004	  6.84739E-004	
  3.92192E+001	  3.32276E-004	  2.46592E-004	  2.89348E-004	  4.60889E-004	  5.52096E-004	  4.95153E-004	  4.76144E-004	  6.84991E-004	
  4.24960E+001	  3.24904E-004	  2.39011E-004	  2.89697E-004	  4.46004E-004	  5.49030E-004	  4.95936E-004	  4.64458E-004	  6.86696E-004	
  4.57728E+001	  3.22628E-004	  2.46576E-004	  2.83263E-004	  4.38044E-004	  5.43942E-004	  4.85670E-004	  4.61717E-004	  6.84440E-004	
  4.90496E+001	  3.20203E-004	  2.30723E-004	  2.85325E-004	  4.44561E-004	  5.37159E-004	  4.78508E-004	  4.67356E-004	  6.65614E-004	
  5.23264E+001	  3.20190E-004	  2.29963E-004	  2.84763E-004	  4.45843E-004	  5.26588E-004	  4.68032E-004	  4.56158E-004	  6.55575E-004	
  5.88800E+001	  3.18833E-004	  2.32947E-004	  2.79253E-004	  4.44299E-004	  5.29184E-004	  4.57194E-004	  4.81995E-004	  6.48363E-004	
  6.54336E+001	  3.16360E-004	  2.14825E-004	  2.93350E-004	  4.40905E-004	  5.34302E-004	  4.47396E-004	  5.11101E-004	  6.44410E-004	
  7.19872E+001	  3.14304E-004	  2.15929E-004	  2.88741E-004	  4.38241E-004	  5.31449E-004	  4.48581E-004	  5.04580E-004	  6.41185E-004	
  7.85408E+001	  3.12218E-004	  2.22967E-004	  2.83521E-004	  4.30165E-004	  5.24080E-004	  4.46457E-004	  4.95457E-004	  6.30326E-004	
  8.50944E+001	  3.14004E-004	  2.13195E-004	  2.90887E-004	  4.37930E-004	  5.28139E-004	  4.54089E-004	  4.86731E-004	  6.43598E-004	
  9.16480E+001	  3.10069E-004	  2.23148E-004	  2.74650E-004	  4.32410E-004	  5.13314E-004	  4.34674E-004	  4.80678E-004	  6.24590E-004	
  9.82016E+001	  3.04408E-004	  2.19725E-004	  2.60929E-004	  4.32570E-004	  5.05680E-004	  4.30031E-004	  4.61888E-004	  6.25121E-004	
  1.04755E+002	  2.97571E-004	  2.13214E-004	  2.68320E-004	  4.11180E-004	  4.87556E-004	  4.05339E-004	  4.56085E-004	  6.01245E-004	
  1.17862E+002	  2.96312E-004	  2.09346E-004	  2.66972E-004	  4.12618E-004	  4.85248E-004	  4.15501E-004	  4.58995E-004	  5.81247E-004	
  1.30970E+002	  2.92261E-004	  2.07835E-004	  2.55978E-004	  4.12969E-004	  4.73496E-004	  3.96634E-004	  4.46925E-004	  5.76929E-004	
  1.44077E+002	  2.92302E-004	  1.97782E-004	  2.55708E-004	  4.23416E-004	  4.71421E-004	  3.74250E-004	  4.39972E-004	  6.00040E-004	
  1.57184E+002	  2.90955E-004	  1.92939E-004	  2.61776E-004	  4.18149E-004	  4.75230E-004	  3.86377E-004	  4.42983E-004	  5.96330E-004	
  1.70291E+002	  2.97435E-004	  2.08835E-004	  2.69109E-004	  4.14362E-004	  4.77395E-004	  3.97386E-004	  4.66218E-004	  5.68582E-004	
  1.83398E+002	  2.88789E-004	  2.09975E-004	  2.58315E-004	  3.98076E-004	  4.74740E-004	  3.95703E-004	  4.55223E-004	  5.73293E-004	
  1.96506E+002	  2.83496E-004	  1.96528E-004	  2.65324E-004	  3.88636E-004	  4.82937E-004	  4.01291E-004	  4.78260E-004	  5.69259E-004	
  2.09613E+002	  2.70326E-004	  1.88944E-004	  2.59593E-004	  3.62441E-004	  4.53667E-004	  3.76699E-004	  4.39445E-004	  5.44858E-004	
  2.35827E+002	  2.61817E-004	  1.79914E-004	  2.58736E-004	  3.46801E-004	  4.54408E-004	  3.72267E-004	  4.24135E-004	  5.66822E-004	
  2.62042E+002	  2.59988E-004	  1.76751E-004	  2.49773E-004	  3.53441E-004	  4.66664E-004	  4.00517E-004	  4.17444E-004	  5.82032E-004	
  2.88256E+002	  2.63125E-004	  1.88091E-004	  2.45595E-004	  3.55689E-004	  4.75249E-004	  4.25850E-004	  4.24230E-004	  5.75668E-004	
  3.14470E+002	  2.64198E-004	  1.90298E-004	  2.41819E-004	  3.60479E-004	  4.50584E-004	  4.18372E-004	  3.79843E-004	  5.53536E-004	
  3.40685E+002	  2.61898E-004	  1.78221E-004	  2.48722E-004	  3.58752E-004	  4.43512E-004	  3.76867E-004	  4.03826E-004	  5.49842E-004	
  3.66899E+002	  2.65626E-004	  1.76481E-004	  2.51296E-004	  3.69100E-004	  4.40539E-004	  3.84544E-004	  4.00014E-004	  5.37060E-004	
  3.93114E+002	  2.63357E-004	  1.81691E-004	  2.53698E-004	  3.54682E-004	  4.42822E-004	  3.92064E-004	  4.03640E-004	  5.32761E-004	
  4.19328E+002	  2.41686E-004	  1.60226E-004	  2.61292E-004	  3.03541E-004	  3.77599E-004	  2.99346E-004	  3.76330E-004	  4.57120E-004	
  4.71757E+002	  2.34837E-004	  1.52970E-004	  2.48591E-004	  3.02950E-004	  3.83280E-004	  3.19030E-004	  3.70626E-004	  4.60184E-004	
  5.24186E+002	  2.31339E-004	  1.43475E-004	  2.46844E-004	  3.03699E-004	  3.86461E-004	  2.93269E-004	  3.67084E-004	  4.99029E-004	
  5.76614E+002	  2.24650E-004	  1.43147E-004	  2.27367E-004	  3.03437E-004	  3.87855E-004	  2.88121E-004	  3.63932E-004	  5.11513E-004	
  6.29043E+002	  2.21525E-004	  1.47285E-004	  2.24702E-004	  2.92587E-004	  3.90282E-004	  2.83748E-004	  3.48326E-004	  5.38773E-004	
  6.81472E+002	  2.18386E-004	  1.44930E-004	  2.22969E-004	  2.87259E-004	  3.85474E-004	  2.91831E-004	  3.51037E-004	  5.13555E-004	
  7.33901E+002	  2.07505E-004	  1.25569E-004	  2.10367E-004	  2.86579E-004	  3.80734E-004	  3.04370E-004	  3.35818E-004	  5.02013E-004	
  7.86330E+002	  2.04221E-004	  1.31310E-004	  2.04879E-004	  2.76475E-004	  3.84739E-004	  3.03292E-004	  3.44941E-004	  5.05984E-004	
  8.38758E+002	  1.24568E-004	  9.75678E-005	  1.74006E-004	  1.02130E-004	  2.74004E-004	  1.81383E-004	  2.96264E-004	  3.44364E-004	
  9.43616E+002	  1.30638E-004	  1.03937E-004	  1.74955E-004	  1.13021E-004	  2.85426E-004	  1.87325E-004	  2.98436E-004	  3.70518E-004	
  1.04847E+003	  1.34375E-004	  1.13534E-004	  1.68843E-004	  1.20747E-004	  2.80982E-004	  1.81245E-004	  3.14265E-004	  3.47436E-004	
  1.15333E+003	  1.31378E-004	  1.14063E-004	  1.54189E-004	  1.25882E-004	  3.03671E-004	  2.13147E-004	  3.02158E-004	  3.95707E-004	
  1.25819E+003	  1.28164E-004	  1.18798E-004	  1.45113E-004	  1.20581E-004	  3.20341E-004	  2.32697E-004	  3.16896E-004	  4.11428E-004	
  1.36305E+003	  1.35031E-004	  1.25521E-004	  1.49995E-004	  1.29576E-004	  2.91502E-004	  2.06179E-004	  3.10129E-004	  3.58198E-004	
  1.46790E+003	  1.34879E-004	  1.23282E-004	  1.38908E-004	  1.42446E-004	  3.10887E-004	  2.46475E-004	  2.86304E-004	  3.99880E-004	
  1.57276E+003	  1.36609E-004	  1.24409E-004	  1.34647E-004	  1.50772E-004	  3.22401E-004	  2.42051E-004	  2.84642E-004	  4.40509E-004	
  1.67762E+003	  4.39441E-005	  1.99249E-005	  9.02051E-005	  2.17023E-005	  1.35416E-004	  8.96234E-005	  1.56041E-004	  1.60582E-004	
  1.88733E+003	  3.65082E-005	  2.22214E-005	  8.89507E-005	 -1.64748E-006	  1.30350E-004	  8.00183E-005	  1.70366E-004	  1.40665E-004	
  2.09705E+003	  4.07915E-005	  3.89596E-005	  8.25136E-005	  9.01262E-007	  1.34899E-004	  8.66831E-005	  1.58674E-004	  1.59339E-004	
  2.30676E+003	  4.17584E-005	  3.32705E-005	  8.66745E-005	  5.33001E-006	  1.22131E-004	  7.63812E-005	  1.56379E-004	  1.33633E-004	
  2.51648E+003	  3.40150E-005	  4.80035E-005	  7.56479E-005	 -2.16065E-005	  1.37258E-004	  1.04202E-004	  1.47169E-004	  1.60402E-004	
  2.72620E+003	  4.76294E-005	  6.10529E-005	  6.71576E-005	  1.46779E-005	  1.35861E-004	  1.16076E-004	  1.21783E-004	  1.69723E-004	
  2.93591E+003	  5.20474E-005	  6.49643E-005	  6.62301E-005	  2.49478E-005	  1.35896E-004	  1.52970E-004	  1.05518E-004	  1.49199E-004	
  3.14563E+003	  4.64130E-005	  5.89322E-005	  4.64756E-005	  3.38312E-005	  1.34340E-004	  1.48548E-004	  8.40104E-005	  1.70461E-004	

"Count Rate"
       0.03906	    2745.06592	    2084.16431
       0.07813	    2692.25439	    2098.60718
       0.11719	    2737.71606	    2062.55151
       0.15625	    2767.26978	    2083.44482
       0.19531	    2734.78638	    2094.67529
       0.23438	    2727.71899	    2059.18481
       0.27344	    2757.42700	    2101.56250
       0.31250	    2753.31519	    2156.25000
       0.35156	    2713.86719	    2103.79834
       0.39063	    2720.16357	    2058.18262
       0.42969	    2764.41724	    2101.71680
       0.46875	    2692.84546	    2104.02954
       0.50781	    2712.29956	    2082.93066
       0.54688	    2767.65527	    2106.80518
       0.58594	    2760.76807	    2094.59814
       0.62500	    2736.94507	    2092.07959
       0.66406	    2757.76123	    2078.66479
       0.70313	    2707.67383	    2077.76538
       0.74219	    2721.67969	    2073.42212
       0.78125	    2711.73413	    2092.33667
       0.82031	    2747.68726	    2109.11816
       0.85938	    2716.12866	    2105.52026
       0.89844	    2791.32397	    2078.87036
       0.93750	    2724.53247	    2057.69434
       0.97656	    2749.43481	    2092.18237
       1.01563	    2770.73926	    2119.73169
       1.05469	    2735.55713	    2077.63672
       1.09375	    2763.31226	    2115.00317
       1.13281	    2723.50439	    2104.82642
       1.17188	    2718.13330	    2060.82959
       1.21094	    2673.54541	    2010.15112
       1.25000	    2746.73633	    2069.02759
       1.28906	    2749.82007	    2113.82104
       1.32813	    2715.82031	    2103.64429
       1.36719	    2699.14185	    2096.75684
       1.40625	    2702.17432	    2042.09509
       1.44531	    2754.95996	    2093.87866
       1.48438	    2700.24683	    2053.32544
       1.52344	    2686.88330	    2056.61499
       1.56250	    2649.02856	    2031.40430
       1.60156	    2689.83862	    2065.99512
       1.64063	    2655.94165	    2050.39575
       1.67969	    2644.06885	    2032.43225
       1.71875	    2602.69336	    1984.01526
       1.75781	    2588.79004	    2022.89783
       1.79688	    2595.42041	    1998.68945
       1.83594	    2586.29736	    2005.26831
       1.87500	    2626.33643	    2000.69397
       1.91406	    2624.25488	    2041.09277
       1.95313	    2666.45264	    2059.72461
       1.99219	    2645.40503	    2034.74512
       2.03125	    2655.58179	    2081.69727
       2.07031	    2697.44556	    2109.22095
       2.10938	    2640.59937	    2054.12207
       2.14844	    2658.48584	    2082.36548
       2.18750	    2635.15112	    2058.49097
       2.22656	    2638.74902	    2059.90454
       2.26563	    2642.86084	    2055.35571
       2.30469	    2659.61670	    2093.67285
       2.34375	    2631.99023	    2058.79932
       2.38281	    2646.89575	    2006.01367
       2.42188	    2652.00977	    2029.45117
       2.46094	    2656.73828	    2032.71484
       2.50000	    2655.24780	    2056.15234
       2.53906	    2658.89697	    2038.57422
       2.57813	    2675.83276	    2053.91650
       2.61719	    2645.81616	    2061.98608
       2.65625	    2654.93945	    1993.06128
       2.69531	    2558.10547	    2001.82471
       2.73438	    2611.09692	    2017.68103
       2.77344	    2631.96460	    1972.45068
       2.81250	    2641.31885	    2008.89197
       2.85156	    2608.01294	    2049.85620
       2.89063	    2670.51294	    2067.81982
       2.92969	    2694.00195	    2011.07629
       2.96875	    2671.05273	    2018.96594
       3.00781	    2580.02686	    1974.06970
       3.04688	    2638.74902	    2019.12012
       3.08594	    2623.71509	    2013.26074
       3.12500	    2684.15918	    2049.62476
       3.16406	    2653.88574	    2052.76001
       3.20313	    2649.90234	    2072.08569
       3.24219	    2659.30835	    2005.29407
       3.28125	    2629.26611	    2031.58411
       3.32031	    2623.25244	    1984.73486
       3.35938	    2552.86304	    1982.85876
       3.39844	    2593.67285	    1993.31836
       3.43750	    2595.29199	    2004.75439
       3.47656	    2605.23755	    2058.67090
       3.51563	    2611.45679	    2040.01343
       3.55469	    2619.75757	    2032.71484
       3.59375	    2595.75464	    2037.93176
       3.63281	    2647.38403	    2039.67932
       3.67188	    2666.34985	    2013.67188
       3.71094	    2623.94629	    2026.62427
       3.75000	    2618.70386	    2025.85327
       3.78906	    2621.71069	    2010.92212
       3.82813	    2602.69336	    1996.68494
       3.86719	    2591.23145	    1997.35303
       3.90625	    2609.63208	    1956.08044
       3.94531	    2600.84302	    1960.47498
       3.98438	    2567.66553	    1961.73425
       4.02344	    2596.42285	    1982.26770
       4.06250	    2591.10303	    2014.49426
       4.10156	    2605.26318	    1970.85742
       4.14063	    2618.83228	    2024.56836
       4.17969	    2663.34302	    2002.44141
       4.21875	    2669.12524	    2023.46326
       4.25781	    2660.36182	    1993.26697
       4.29688	    2616.90479	    1975.66309
       4.33594	    2587.53101	    1910.43896
       4.37500	    2625.92529	    2026.44434
       4.41406	    2587.32520	    2031.32715
       4.45313	    2554.73901	    2002.00452
       4.49219	    2573.96191	    2015.18811
       4.53125	    2580.82349	    1966.53992
       4.57031	    2581.97998	    1957.13416
       4.60938	    2551.55225	    1936.93469
       4.64844	    2616.62207	    2000.23132
       4.68750	    2667.09497	    2049.44507
       4.72656	    2561.00952	    2002.69849
       4.76563	    2584.29272	    1971.67969
       4.80469	    2538.44580	    2009.53442
       4.84375	    2546.43823	    1974.99487
       4.88281	    2599.71216	    1983.03870
       4.92188	    2537.93188	    1936.52344
       4.96094	    2512.54126	    1951.30042
       5.00000	    2594.46973	    1984.11804
       5.03906	    2600.53467	    1947.88245
       5.07813	    2549.95898	    1954.41003
       5.11719	    2569.43872	    1960.83472
       5.15625	    2574.88696	    1926.26953
       5.19531	    2549.72754	    1929.53333
       5.23438	    2579.97534	    2025.82751
       5.27344	    2595.13770	    2005.26831
       5.31250	    2558.41382	    1976.69104
       5.35156	    2587.81348	    2031.71265
       5.39063	    2573.67920	    2009.17456
       5.42969	    2552.16895	    1946.18628
       5.46875	    2504.08618	    1939.63306
       5.50781	    2530.91602	    1965.51196
       5.54688	    2522.66650	    1902.36951
       5.58594	    2551.68066	    1907.50928
       5.62500	    2515.54785	    1911.46692
       5.66406	    2506.14209	    1879.29175
       5.70313	    2537.18652	    1959.13867
       5.74219	    2489.46338	    1898.95154
       5.78125	    2524.97949	    1907.79199
       5.82031	    2537.82910	    1896.35596
       5.85938	    2560.52124	    1919.30518
       5.89844	    2556.22949	    1966.38574
       5.93750	    2508.35229	    1894.30005
       5.97656	    2558.87646	    1967.46509
       6.01563	    2576.71167	    1922.59460
       6.05469	    2596.96240	    1961.93982
       6.09375	    2566.40625	    1973.65857
       6.13281	    2571.82886	    2020.79053
       6.17188	    2576.81445	    1947.47131
       6.21094	    2580.25806	    1977.30786
       6.25000	    2594.13550	    1942.61414
       6.28906	    2589.48413	    1940.35266
       6.32813	    2547.92871	    1959.34424
       6.36719	    2583.16211	    1968.67297
       6.40625	    2579.35864	    1932.30884
       6.44531	    2602.17944	    1952.53394
       6.48438	    2573.03662	    1950.65796
       6.52344	    2616.13379	    2000.92517
       6.56250	    2619.08936	    2010.58801
       6.60156	    2632.04150	    1956.05469
       6.64063	    2600.84302	    1977.69336
       6.67969	    2656.12158	    1955.69495
       6.71875	    2620.21997	    1949.75842
       6.75781	    2601.97363	    1907.99756
       6.79688	    2554.25073	    1926.29529
       6.83594	    2586.27173	    1975.14905
       6.87500	    2622.37866	    1976.30554
       6.91406	    2582.15991	    1958.44470
       6.95313	    2560.34131	    1943.30798
       6.99219	    2622.01904	    1953.02222
       7.03125	    2577.86816	    1980.31458
       7.07031	    2566.71460	    1972.47644
       7.10938	    2551.83496	    1932.89990
       7.14844	    2585.91187	    1990.77405
       7.18750	    2574.55298	    1916.01563
       7.22656	    2555.53564	    1941.99744
       7.26563	    2550.78125	    1920.25598
       7.30469	    2568.28223	    1924.31641
       7.34375	    2545.10181	    1941.99744
       7.38281	    2611.66235	    1988.64111
       7.42188	    2594.64941	    1965.15222
       7.46094	    2579.25586	    1962.60803
       7.50000	    2589.99805	    1923.69971
       7.53906	    2549.00806	    1913.57422
       7.57813	    2560.41846	    1902.52368
       7.61719	    2574.09033	    1914.19104
       7.65625	    2599.40381	    1990.08020
       7.69531	    2591.74561	    1975.58594
       7.73438	    2595.00928	    1958.80457
       7.77344	    2621.50488	    1980.46875
       7.81250	    2594.05835	    1920.02478
       7.85156	    2602.48779	    1948.88477
       7.89063	    2599.19824	    1973.78711
       7.92969	    2578.74194	    1941.74036
       7.96875	    2624.46045	    1986.17395
       8.00781	    2628.36670	    1947.21423
       8.04688	    2639.80273	    1999.40894
       8.08594	    2615.74854	    2003.39233
       8.12500	    2620.57983	    2021.40735
       8.16406	    2663.06030	    1995.70837
       8.20313	    2661.44116	    1952.04565
       8.24219	    2612.53613	    1922.28625
       8.28125	    2624.12622	    1954.05017
       8.32031	    2647.28101	    1943.56506
       8.35938	    2630.93652	    1967.92773
       8.39844	    2622.09619	    1982.24207
       8.43750	    2610.73706	    1943.41077
       8.47656	    2649.74829	    1905.14502
       8.51563	    2616.05688	    1913.62561
       8.55469	    2665.68164	    1935.03296
       8.59375	    2694.97852	    1971.14001
       8.63281	    2675.62720	    1994.57751
       8.67188	    2647.58960	    1982.80737
       8.71094	    2645.55933	    1991.21094
       8.75000	    2638.80054	    1940.55823
       8.78906	    2653.03760	    1987.07349
       8.82813	    2613.69238	    1963.86719
       8.86719	    2594.93213	    1941.14929
       8.90625	    2589.81812	    1985.66003
       8.94531	    2584.06152	    1929.35352
       8.98438	    2579.25586	    1915.14197
       9.02344	    2639.10889	    1929.01941
       9.06250	    2571.90601	    1913.34302
       9.10156	    2587.76221	    1929.86743
       9.14063	    2614.59204	    1958.98438
       9.17969	    2602.66772	    1968.51880
       9.21875	    2630.49976	    1972.88757
       9.25781	    2666.29834	    1971.11438
       9.29688	    2588.37891	    1966.89978
       9.33594	    2670.10181	    1939.29895
       9.37500	    2675.13892	    1990.87695
       9.41406	    2610.73706	    1963.01917
       9.45313	    2658.66577	    1999.79443
       9.49219	    2576.40332	    1926.86072
       9.53125	    2607.98730	    1954.20447
       9.57031	    2606.88232	    1919.48499
       9.60938	    2656.66138	    1953.69043
       9.64844	    2635.74219	    1942.53711
